TimeStep, accel_x, accel_y, accel_z, gyro_x, gyro_y, gyro_z, gyro_w
2.047982, -0.716, -0.788, -0.106, -0.247, 0.276, -0.038, -0.928
2.581315, -0.948, 1.532, -1.504, 0.298, 0.315, 0.463, -0.773
2.986644, -1.214, 2.212, -0.735, 0.465, 0.346, 0.701, -0.416
3.071995, -0.765, 0.496, -0.480, 0.461, 0.274, 0.685, -0.493
3.455986, -0.756, 0.031, -0.393, 0.433, 0.235, 0.704, -0.511
4.799977, -1.122, -1.067, -0.935, -0.256, -0.328, -0.905, 0.087
5.141315, -3.009, -0.402, -2.298, -0.220, -0.489, -0.843, -0.032
6.655986, 0.034, -0.171, 0.688, -0.239, -0.668, -0.694, 0.121
9.002653, -0.078, 0.931, 3.289, -0.315, -0.892, -0.242, -0.218
9.066644, -1.996, -0.112, -0.943, -0.564, -0.627, -0.443, -0.304
10.19732, 0.473, -0.018, 0.035, -0.081, -0.661, -0.726, -0.172
10.32533, -0.627, -0.682, -1.279, -0.292, -0.586, -0.740, 0.156
10.79465, -1.628, -0.304, -0.207, -0.489, -0.731, -0.463, -0.112
11.56265, -0.507, 0.267, 0.217, -0.067, -0.658, -0.697, -0.277
11.64798, -0.146, 1.522, 0.850, -0.206, -0.642, -0.736, -0.063
12.09599, -0.534, 2.734, 1.096, 0.648, 0.312, 0.555, -0.418
12.13866, -0.983, 3.353, -1.562, 0.657, 0.233, 0.430, -0.574
12.65066, -0.155, 2.537, -1.523, 0.826, 0.109, 0.458, -0.309
13.41866, -0.838, 2.778, -1.181, 0.624, 0.213, 0.484, -0.575
14.71998, -3.149, -0.594, -0.154, 0.638, 0.147, 0.360, -0.665
15.18932, -1.330, -0.760, 1.427, 0.135, -0.717, -0.647, 0.220
15.61599, -3.167, -0.822, 0.785, 0.124, -0.731, -0.529, 0.412
15.70131, -1.837, -0.604, -1.628, 0.012, -0.707, -0.449, 0.545
16.12798, -1.721, 0.097, 0.412, 0.088, -0.951, -0.281, 0.099
16.17066, -2.022, -0.290, 0.012, -0.074, -0.926, -0.348, 0.127
16.78932, 1.312, -0.991, 0.515, 0.043, -0.708, -0.659, 0.250
16.85331, -0.779, -0.029, -0.501, 0.061, -0.692, -0.673, 0.255
16.95998, 0.387, -0.513, -0.457, -0.073, -0.548, -0.703, 0.447
17.00265, 0.736, -0.982, 1.327, 0.010, -0.714, -0.661, 0.229
17.21599, 1.054, -0.759, 0.255, -0.033, -0.631, -0.726, 0.271
17.32265, 0.172, -0.185, -0.376, 0.070, -0.707, -0.686, 0.158
17.74932, -2.837, -0.308, -2.734, 0.054, -0.546, -0.722, 0.423
17.83465, 1.042, -0.802, 0.364, 0.033, -0.539, -0.756, 0.370
18.19732, 1.365, -0.118, 0.589, 0.158, -0.780, -0.603, -0.055
18.21866, 0.852, 0.313, 0.001, 0.092, -0.765, -0.636, -0.039
18.30399, -3.843, -1.000, -2.579, -0.058, -0.568, -0.773, 0.276
18.32533, -1.404, -0.602, -1.022, -0.049, -0.527, -0.765, 0.367
18.62399, 1.843, 0.424, -0.100, 0.026, -0.509, -0.806, 0.300
18.66664, 2.679, -0.028, 1.284, 0.082, -0.620, -0.776, 0.078
18.73066, 0.981, 1.304, -0.741, 0.074, -0.688, -0.717, -0.082
18.752, -7.058, -0.285, -2.598, -0.035, -0.604, -0.779, 0.163
18.79465, -2.236, 0.375, -1.243, -0.095, -0.549, -0.773, 0.302
18.83732, 3.616, -0.936, 1.440, -0.071, -0.580, -0.735, 0.344
18.87998, 1.005, 0.224, 0.582, 0.109, -0.723, -0.677, 0.087
18.96533, -5.629, -0.455, -2.000, -0.021, -0.601, -0.739, 0.304
18.98664, -3.335, 0.187, -0.949, -0.084, -0.545, -0.718, 0.424
19.00798, 1.786, -0.209, 0.243, 0.011, -0.637, -0.695, 0.333
19.09331, 1.789, 0.349, 0.191, 0.162, -0.706, -0.683, 0.097
19.13599, -0.830, -0.044, -1.031, 0.113, -0.693, -0.700, 0.130
19.15732, -4.255, -1.177, -1.616, 0.002, -0.625, -0.729, 0.280
19.26399, 0.835, 0.015, 0.740, 0.076, -0.608, -0.720, 0.326
19.62664, -1.744, 0.321, 1.378, 0.138, -0.726, -0.657, 0.151
19.64798, -6.299, -1.755, -1.721, 0.048, -0.725, -0.641, 0.249
19.69066, -0.724, -1.348, -0.670, -0.127, -0.670, -0.616, 0.394
19.98932, 1.744, -0.949, 0.133, 0.129, -0.670, -0.683, 0.259
20.09599, -3.601, -0.473, -2.143, -0.085, -0.662, -0.615, 0.419
20.11732, -0.425, 0.032, -1.277, -0.055, -0.589, -0.680, 0.433
20.45866, -4.038, -0.715, 2.795, 0.242, -0.586, -0.767, -0.093
20.52265, -6.081, -1.258, 0.090, 0.046, -0.701, -0.689, 0.180
20.56533, -0.354, 1.735, -2.756, -0.063, -0.624, -0.711, 0.319
20.672, -0.040, -2.864, 0.234, 0.370, 0.573, 0.470, -0.560
20.73599, -0.580, 5.447, -0.928, 0.445, 0.455, 0.381, -0.670
20.75732, -0.075, 3.203, -2.025, 0.464, 0.383, 0.299, -0.741
20.84265, -0.530, -3.490, 1.286, 0.446, 0.504, 0.382, -0.633
20.86399, 0.215, -1.780, 0.313, 0.435, 0.547, 0.433, -0.569
20.90664, 0.554, 0.326, -0.689, 0.437, 0.466, 0.377, -0.670
20.92798, 0.030, 4.160, -1.277, 0.437, 0.401, 0.324, -0.737
20.99199, 0.260, -0.865, -0.965, 0.446, 0.347, 0.219, -0.796
21.03465, -0.060, -1.606, 0.325, 0.371, 0.493, 0.370, -0.694
21.31199, -0.924, -0.896, -0.025, 0.292, 0.564, 0.359, -0.683
21.33331, -1.681, 0.301, 1.201, 0.337, 0.584, 0.320, -0.666
21.43998, -1.047, 0.157, -1.082, 0.474, 0.481, 0.207, -0.708
21.75998, -1.082, 0.688, 1.282, 0.475, 0.528, 0.380, -0.592
21.80265, -0.260, 3.827, -1.087, 0.533, 0.454, 0.296, -0.650
21.84533, 0.226, 2.489, -1.607, 0.493, 0.337, 0.271, -0.755
22.14399, -1.914, -0.182, 0.628, 0.026, -0.621, -0.769, 0.146
22.18664, -6.619, -0.916, -1.103, -0.079, -0.578, -0.733, 0.348
22.20798, -1.061, -0.003, -1.835, -0.157, -0.549, -0.727, 0.381
22.22932, 0.698, 0.488, -0.155, -0.044, -0.574, -0.772, 0.269
22.33599, 2.825, -0.061, -1.148, 0.135, -0.648, -0.747, -0.067
22.39998, -5.626, -1.012, 0.997, 0.064, -0.666, -0.743, 0.008
22.46399, 0.546, -0.383, -2.065, -0.063, -0.619, -0.751, 0.222
22.82664, 0.095, -0.780, 0.227, 0.051, -0.689, -0.499, 0.523
23.59465, 0.016, -0.377, 0.797, 0.320, -0.820, -0.405, 0.247
23.95732, -1.286, 0.408, 2.441, 0.246, -0.952, -0.145, 0.113
24.27732, -0.543, 0.141, 0.943, 0.039, -0.880, -0.414, 0.231
24.31998, 0.566, 0.240, -1.056, 0.143, -0.693, -0.690, 0.152
28.47998, -2.751, -0.654, 1.418, 0.090, -0.697, -0.650, 0.288
28.56533, -1.230, -0.811, -0.048, -0.039, -0.657, -0.586, 0.473
28.84265, -0.376, 0.468, 0.668, 0.252, -0.607, -0.752, 0.056
28.88533, -4.241, -0.515, 1.121, 0.149, -0.674, -0.697, 0.191
28.90664, -3.532, -0.855, -1.842, 0.033, -0.676, -0.610, 0.411
29.37599, -2.348, -0.566, -0.149, -0.003, -0.933, -0.339, 0.123
29.39732, -1.285, -0.887, 0.322, -0.059, -0.921, -0.362, 0.130
29.71733, -1.270, -1.297, 1.456, -0.006, -0.893, -0.408, 0.189
29.75998, -0.438, -0.626, 0.246, 0.081, -0.823, -0.477, 0.297
30.14399, -1.891, -0.919, 1.856, 0.215, -0.677, -0.696, 0.105
30.44265, 0.293, 0.116, -0.242, 0.217, -0.615, -0.753, 0.095
30.52798, -4.056, -1.019, -0.638, 0.086, -0.723, -0.609, 0.315
30.97599, -2.323, -0.628, -0.281, -0.024, -0.935, -0.327, 0.138
31.33866, -0.366, -0.276, 0.180, 0.023, -0.828, -0.509, 0.236
31.67998, -3.729, -1.152, 1.077, 0.084, -0.682, -0.716, 0.126
31.99998, -2.723, -0.767, 0.602, 0.112, -0.668, -0.704, 0.216
32.512, -2.074, -0.551, 0.620, 0.056, -0.930, -0.345, 0.113
32.91732, -0.510, -0.350, -0.348, 0.090, -0.763, -0.554, 0.321
33.23732, 0.797, -2.746, -1.704, -0.489, 0.310, 0.758, 0.300
33.87732, 1.055, -2.024, -0.124, -0.632, 0.469, 0.577, 0.219
33.89866, 0.699, -1.423, -0.682, -0.581, 0.476, 0.649, 0.123
34.00533, 0.392, 2.167, 1.365, -0.639, 0.436, 0.516, 0.367
34.04798, -1.098, 0.206, -0.729, -0.592, 0.490, 0.436, 0.469
34.06932, 0.204, -4.733, -4.177, -0.489, 0.482, 0.579, 0.440
34.112, -0.559, -2.595, -2.391, -0.345, 0.423, 0.754, 0.366
34.15465, 0.464, 3.801, 2.151, -0.371, 0.421, 0.746, 0.359
34.17599, 0.042, 2.660, 2.474, -0.570, 0.443, 0.540, 0.432
34.30399, 1.014, 2.386, 1.643, -0.407, 0.459, 0.693, 0.377
34.41066, 1.231, -4.581, -2.816, -0.392, 0.458, 0.728, 0.325
34.47465, 0.497, 0.230, 1.101, -0.398, 0.439, 0.744, 0.310
34.49599, 0.189, 0.958, 0.036, -0.525, 0.404, 0.633, 0.402
34.85866, -0.822, 0.387, 0.997, 0.228, 0.553, 0.595, -0.536
34.98664, -1.554, 0.731, -0.085, 0.520, 0.450, 0.359, -0.631
35.30664, -0.263, 0.399, -0.702, 0.510, 0.424, 0.238, -0.709
35.34932, 0.237, -1.084, -0.265, 0.449, 0.494, 0.325, -0.670
35.56265, -0.134, 3.725, -0.330, 0.436, 0.480, 0.359, -0.672
35.66932, -0.663, -3.475, 1.076, 0.421, 0.450, 0.386, -0.686
35.71199, -0.336, -1.413, 1.957, 0.415, 0.577, 0.476, -0.518
35.77599, -0.943, 4.378, -1.905, 0.483, 0.553, 0.395, -0.552
35.81866, -0.203, 1.845, -1.498, 0.490, 0.413, 0.336, -0.690
35.83998, -0.698, -2.466, 0.686, 0.480, 0.417, 0.353, -0.686
35.90399, 0.081, -1.446, 0.709, 0.445, 0.582, 0.469, -0.493
35.96798, -0.507, 5.368, -1.609, 0.456, 0.429, 0.363, -0.690
36.01066, -0.844, 0.770, -0.909, 0.466, 0.328, 0.301, -0.765
36.18132, -0.172, -0.142, -0.575, 0.267, 0.549, 0.493, -0.621
36.54399, -1.331, 3.183, 0.928, 0.435, 0.483, 0.315, -0.692
36.82132, -0.304, -0.141, 0.476, 0.386, 0.565, 0.348, -0.640
36.90664, 0.081, 4.389, -2.319, 0.437, 0.303, 0.084, -0.843
37.26932, -0.116, 5.334, -1.539, 0.445, 0.359, 0.337, -0.748
37.312, 0.309, 2.893, -2.204, 0.461, 0.240, 0.193, -0.832
37.39732, -0.422, -2.447, 0.646, 0.437, 0.398, 0.334, -0.734
37.48265, -0.044, -0.193, 0.198, 0.448, 0.600, 0.445, -0.491
37.54664, 0.228, 2.295, -1.645, 0.468, 0.444, 0.309, -0.699
37.61066, -0.688, -1.871, 1.284, 0.416, 0.461, 0.323, -0.714
37.67465, 0.392, -1.746, 0.096, 0.352, 0.619, 0.462, -0.528
37.71732, 0.718, -0.768, -0.320, 0.335, 0.553, 0.404, -0.648
37.73866, 0.337, 2.827, -1.949, 0.326, 0.485, 0.343, -0.735
37.78131, 0.978, 3.353, -3.014, 0.291, 0.314, 0.169, -0.888
37.84533, -0.204, -1.467, 0.836, 0.252, 0.382, 0.277, -0.845
38.22932, -0.724, 4.439, -0.007, 0.393, 0.476, 0.261, -0.742
39.10399, 1.457, 1.647, -1.060, 0.207, -0.157, -0.230, -0.938
39.40265, 1.072, 0.833, -1.418, 0.221, -0.176, -0.437, -0.854
39.46664, 1.418, 1.225, -2.306, 0.255, -0.179, -0.401, -0.861
39.59465, 0.738, -0.752, 0.079, 0.342, 0.186, -0.106, -0.915
39.95732, 0.180, -0.126, 0.365, -0.606, -0.185, 0.145, 0.759
40.06399, 0.896, 0.755, -1.292, 0.538, 0.460, 0.045, -0.705
43.98932, -0.436, 0.037, 0.179, -0.519, 0.360, 0.641, 0.437
44.13866, -0.144, -2.323, -1.882, -0.183, 0.539, 0.814, -0.119
44.47998, 0.239, 0.747, 0.964, -0.540, 0.509, 0.655, 0.141
45.29066, -1.138, -4.071, -1.726, -0.006, 0.509, 0.859, -0.060
45.33331, -0.622, -2.296, -2.350, 0.057, 0.480, 0.870, -0.101
46.46399, -0.886, 1.451, -1.787, -0.120, -0.413, -0.777, 0.459
46.52798, -2.893, -0.019, -0.099, -0.130, -0.369, -0.568, 0.724
46.57066, -2.110, -0.334, 0.286, -0.106, -0.421, -0.425, 0.794
46.86932, -0.622, -1.434, -1.808, -0.287, -0.389, -0.442, 0.755
47.57331, -0.369, -0.184, -1.791, -0.509, 0.312, 0.540, 0.593
47.70132, -0.062, 2.939, 0.001, 0.336, 0.456, 0.038, -0.823
49.55732, -0.207, 0.856, -0.007, 0.788, 0.522, 0.311, -0.103
49.62132, 1.355, 1.379, 0.839, 0.749, 0.588, 0.280, -0.126
49.70664, 1.125, -0.877, 1.933, 0.584, 0.808, 0.067, -0.047
51.19998, 3.867, 1.675, 1.344, -0.850, -0.446, -0.166, -0.225
51.24265, 2.426, 0.894, -0.605, 0.834, 0.383, 0.388, 0.082
52.13866, 0.395, -2.361, 0.228, -0.477, -0.253, -0.087, 0.837
52.18132, 0.793, -2.975, 0.952, -0.589, -0.170, 0.098, 0.784
52.20265, 2.754, -4.828, 1.383, -0.644, -0.116, 0.217, 0.724
52.24533, 5.270, -2.630, 0.098, -0.696, 0.036, 0.480, 0.532
52.28798, 3.783, -1.224, -2.609, -0.603, 0.240, 0.705, 0.285
52.30932, 3.218, -0.692, -1.912, -0.431, 0.394, 0.776, 0.239
52.33066, 1.823, -0.242, -0.353, -0.428, 0.415, 0.772, 0.221
54.10131, -2.730, -1.260, 0.767, -0.567, 0.428, 0.547, 0.443
54.14399, -2.388, -3.086, 1.709, -0.517, 0.574, 0.620, 0.139
54.18665, -1.609, -3.566, -1.462, -0.450, 0.609, 0.652, -0.028
54.22932, -0.231, -3.431, 0.053, -0.140, 0.643, 0.675, -0.334
54.272, 0.110, -1.814, 0.502, -0.188, 0.652, 0.623, -0.389
55.21066, -2.872, -1.617, 2.380, 0.536, -0.835, 0.097, 0.074
55.25331, -4.646, -1.069, 1.803, -0.438, 0.891, -0.057, 0.110
55.31733, -2.905, -1.036, -1.769, -0.309, 0.808, 0.251, 0.435
55.35998, -0.961, -1.899, -2.184, -0.150, 0.655, 0.472, 0.571
55.38131, -0.483, -0.825, -1.736, -0.053, 0.523, 0.548, 0.651
56.17066, -0.752, 1.277, -1.403, -0.326, 0.053, 0.442, 0.834
56.29866, -1.780, 0.559, -1.108, -0.225, 0.032, 0.442, 0.868
56.29866, -2.623, 0.013, -0.633, -0.256, 0.081, 0.551, 0.790
56.34132, -3.910, -1.589, 0.722, -0.283, 0.170, 0.691, 0.643
56.44798, -1.395, -3.246, -1.444, -0.115, 0.356, 0.898, -0.230
57.21599, -1.589, -0.685, -2.578, 0.324, 0.272, 0.887, -0.187
57.40798, 0.305, 0.315, 1.608, -0.314, -0.188, 0.871, -0.328
57.45066, 0.666, 0.737, 2.278, -0.450, -0.235, 0.819, -0.269
57.57866, -0.235, -0.419, -0.038, -0.412, -0.147, 0.863, -0.252
57.59998, -1.276, -2.135, -2.295, -0.227, 0.052, 0.938, -0.258
57.64265, -0.976, -2.796, -4.839, -0.155, 0.143, 0.941, -0.263
57.72798, -0.440, -0.969, -0.685, -0.180, 0.215, 0.927, -0.250
57.74932, 0.082, -0.428, -0.151, -0.249, 0.164, 0.920, -0.253
57.81331, 0.591, 1.140, 1.428, -0.404, -0.118, 0.856, -0.299
57.94131, -0.152, -0.257, 0.376, -0.521, -0.173, 0.803, -0.231
57.98399, -1.340, -0.683, -0.040, -0.431, -0.067, 0.870, -0.228
58.02665, -2.067, -1.640, -0.369, -0.279, 0.089, 0.944, -0.149
58.112, -1.171, -1.411, -2.109, 0.020, 0.258, 0.941, -0.219
58.15465, 0.524, -0.336, 0.562, -0.113, 0.210, 0.942, -0.237
58.36798, -0.562, -0.383, 0.213, -0.193, 0.106, 0.952, -0.211
58.36798, -1.501, -1.515, -3.549, -0.078, 0.185, 0.958, -0.206
58.49599, -0.190, -0.381, -0.694, 0.051, 0.204, 0.950, -0.229
58.51732, 0.470, 0.011, 0.278, -0.069, 0.179, 0.953, -0.234
58.752, -1.100, -1.514, -2.459, -0.087, 0.211, 0.956, -0.185
58.87998, -0.316, 0.322, -0.351, -0.222, 0.330, 0.906, -0.147
58.92265, 0.310, 0.625, 0.136, -0.442, 0.413, 0.796, -0.024
61.99465, 0.445, 1.653, -0.294, -0.510, 0.471, 0.276, 0.665
62.18665, 1.475, 2.698, 0.747, -0.473, 0.538, 0.419, 0.559
62.22932, 0.035, -1.786, -0.226, -0.454, 0.577, 0.447, 0.511
62.37866, 0.901, 1.133, 0.173, -0.376, 0.544, 0.618, 0.426
62.93331, 0.834, 0.112, -0.085, -0.326, 0.527, 0.617, 0.485
63.08265, 0.256, -0.297, -0.412, -0.304, 0.558, 0.599, 0.487
63.50932, 1.142, 0.225, -0.075, -0.274, 0.567, 0.617, 0.472
63.72265, 0.519, -0.279, -0.317, -0.195, 0.556, 0.695, 0.411
63.74399, 1.036, 0.736, 0.050, -0.261, 0.559, 0.638, 0.461
63.85066, 0.389, -1.024, -0.374, -0.305, 0.561, 0.597, 0.487
63.93599, 1.228, 0.180, -0.047, -0.263, 0.578, 0.634, 0.442
64.06399, 0.589, -1.150, -0.685, -0.324, 0.563, 0.565, 0.508
64.40533, 1.142, 1.346, 0.305, -0.409, 0.529, 0.573, 0.474
64.63998, 1.033, 1.224, 0.130, -0.396, 0.536, 0.546, 0.507
64.70399, 0.374, 1.156, 0.082, -0.470, 0.511, 0.447, 0.564
64.78932, 0.697, -3.880, -0.578, -0.334, 0.552, 0.598, 0.476
64.83199, 1.468, 0.518, 0.070, -0.323, 0.562, 0.623, 0.438
64.93866, 0.429, 0.133, -0.370, -0.442, 0.477, 0.480, 0.589
65.15199, 0.975, 1.550, 0.246, -0.552, 0.392, 0.326, 0.660
65.21599, 0.039, 0.442, 0.011, -0.527, 0.445, 0.336, 0.641
65.38664, 1.408, 1.943, 0.265, -0.254, 0.552, 0.593, 0.528
65.49331, 0.547, 0.221, -0.333, -0.424, 0.538, 0.447, 0.575
65.64265, 1.154, 1.547, 0.393, -0.391, 0.550, 0.535, 0.508
65.72798, 0.531, 0.970, 0.128, -0.444, 0.532, 0.459, 0.555
65.87733, 0.768, 1.577, 0.210, -0.407, 0.494, 0.535, 0.552
66.11199, 0.885, 1.237, -0.251, -0.368, 0.487, 0.559, 0.561
66.36798, 1.062, 1.475, 0.097, -0.376, 0.521, 0.556, 0.528
66.53867, 0.704, 0.466, -0.355, -0.212, 0.542, 0.706, 0.404
66.58131, 1.145, 1.264, 0.084, -0.316, 0.532, 0.617, 0.486
66.66664, 0.446, 0.635, 0.030, -0.411, 0.511, 0.515, 0.552
66.77331, 1.058, 0.928, -0.194, -0.300, 0.525, 0.633, 0.483
66.81599, 1.378, 2.090, 0.591, -0.384, 0.505, 0.539, 0.553
66.90131, -0.194, 0.563, -0.143, -0.354, 0.510, 0.589, 0.517
66.90131, -0.541, -1.813, -1.203, -0.215, 0.503, 0.722, 0.424
67.00798, 1.272, 1.824, 0.281, -0.170, 0.509, 0.764, 0.358
67.072, 0.510, 0.866, 0.371, -0.348, 0.507, 0.598, 0.513
67.11465, 0.000, -1.057, -0.982, -0.329, 0.504, 0.631, 0.490
67.22131, 0.903, 0.922, -0.269, -0.238, 0.507, 0.702, 0.440
67.24265, 1.607, 2.054, 0.832, -0.341, 0.507, 0.587, 0.531
67.32798, -0.271, 0.116, -0.550, -0.301, 0.510, 0.639, 0.491
67.45599, 0.850, 1.152, -0.183, -0.174, 0.511, 0.745, 0.392
67.47733, 1.480, 1.823, 0.839, -0.315, 0.511, 0.640, 0.479
67.51997, 0.367, 0.719, 0.130, -0.334, 0.511, 0.630, 0.480
67.54131, -0.159, -1.382, -1.025, -0.234, 0.501, 0.727, 0.407
67.64798, 0.625, 0.312, -0.306, -0.182, 0.515, 0.764, 0.344
67.69066, 1.543, 1.706, 0.603, -0.244, 0.524, 0.716, 0.391
67.75465, -1.015, 0.217, -0.939, -0.290, 0.526, 0.685, 0.412
67.96798, 0.185, 0.048, -0.292, -0.008, 0.433, 0.897, -0.090
68.01066, -0.508, -0.865, -0.949, 0.008, 0.422, 0.896, -0.137
68.18131, -0.283, -1.016, -0.764, 0.005, 0.394, 0.902, -0.179
68.41599, 0.219, 1.538, 0.441, -0.543, 0.440, 0.546, 0.461
68.45866, -1.049, -0.401, 0.804, -0.522, 0.468, 0.568, 0.432
68.47998, -1.716, -1.663, -1.044, -0.411, 0.508, 0.705, 0.275
68.60798, -0.400, -1.195, -1.134, 0.039, 0.379, 0.920, -0.094
68.69331, 0.163, -0.334, 0.109, -0.248, 0.469, 0.847, 0.030
68.97066, 0.713, 1.895, 2.159, -0.676, 0.407, 0.584, 0.189
69.05598, 0.282, 1.016, 0.730, -0.729, 0.454, 0.408, 0.309
69.14131, 0.227, -3.439, -1.779, -0.434, 0.534, 0.690, 0.225
69.39732, -0.416, 0.218, -0.274, -0.590, 0.493, 0.543, 0.338
69.73866, -1.049, -1.402, -1.817, 0.124, 0.369, 0.889, -0.241
69.90932, 0.353, 0.010, 0.363, -0.150, 0.499, 0.842, -0.140
70.01598, -0.235, -1.284, -1.011, -0.174, 0.436, 0.872, -0.138
70.03732, -0.571, -2.166, -2.355, -0.130, 0.416, 0.887, -0.152
70.10132, 0.098, 0.052, 0.059, -0.220, 0.481, 0.843, -0.092
70.65598, 0.143, -0.926, -0.601, -0.321, 0.442, 0.834, -0.075
70.76265, 0.394, -0.162, -0.286, -0.243, 0.413, 0.872, -0.101
70.86932, -0.015, -1.509, -1.721, -0.337, 0.413, 0.843, -0.072
71.38132, -0.517, -0.051, -0.440, -0.109, -0.419, -0.528, 0.731
71.50932, 0.320, -0.259, -0.052, -0.126, -0.411, -0.525, 0.735
71.59465, -0.179, -0.372, 0.263, -0.019, -0.552, -0.531, 0.643
80.74664, -0.391, 0.341, -0.917, -0.036, -0.457, -0.607, 0.649
80.95998, -1.258, -0.199, -0.751, -0.092, -0.448, -0.633, 0.625
81.00266, -0.300, 0.189, -1.669, -0.097, -0.410, -0.650, 0.633
81.06664, 1.606, -0.542, 0.812, -0.058, -0.598, -0.694, 0.396
81.13066, -3.146, 0.735, -1.964, -0.035, -0.646, -0.685, 0.333
81.15199, -3.883, 0.121, -3.887, -0.108, -0.523, -0.706, 0.465
81.21599, 2.206, -0.838, 2.508, -0.095, -0.630, -0.685, 0.352
81.25866, -1.258, 0.514, 0.093, -0.091, -0.651, -0.666, 0.353
81.30132, -4.069, 0.203, -2.414, -0.126, -0.588, -0.681, 0.418
81.36533, 2.038, -0.773, 1.462, -0.168, -0.591, -0.693, 0.378
81.53599, 1.464, -0.635, 2.126, -0.127, -0.687, -0.636, 0.328
81.55733, -1.970, 0.129, -0.776, -0.121, -0.700, -0.623, 0.329
81.57866, -2.634, -0.218, -2.768, -0.180, -0.599, -0.648, 0.433
81.66399, 1.767, -0.764, 2.290, -0.207, -0.588, -0.653, 0.431
81.70664, -2.011, 0.202, -0.722, -0.168, -0.648, -0.626, 0.399
81.79199, 1.380, -0.783, 1.930, -0.196, -0.643, -0.622, 0.402
81.83465, -0.930, -0.111, -0.310, -0.179, -0.652, -0.617, 0.402
81.91998, 1.544, -0.802, 1.744, -0.200, -0.644, -0.619, 0.402
81.96265, -0.387, -0.109, 0.192, -0.174, -0.680, -0.606, 0.374
82.06932, 0.642, 1.118, 1.855, -0.179, -0.676, -0.604, 0.383
82.11199, 0.049, -1.649, -0.877, -0.363, 0.601, 0.695, 0.151
82.19733, 0.693, 1.330, 2.010, -0.320, 0.595, 0.724, 0.140
82.21866, 0.021, -1.421, -0.515, -0.347, 0.597, 0.709, 0.142
82.34664, 0.746, 1.687, 2.105, -0.308, 0.592, 0.731, 0.142
82.36798, -0.103, -1.255, -0.448, -0.325, 0.583, 0.731, 0.138
82.47465, 0.678, 1.441, 2.177, -0.300, 0.584, 0.740, 0.144
82.49599, -0.181, -1.529, -0.682, -0.313, 0.579, 0.741, 0.132
82.60265, 0.685, 1.191, 2.206, -0.304, 0.580, 0.743, 0.138
82.64533, 0.004, -2.068, -1.177, -0.299, 0.563, 0.761, 0.122
82.73066, 0.571, 0.790, 1.976, -0.320, 0.572, 0.740, 0.151
82.79465, 0.125, -2.749, -1.988, -0.294, 0.545, 0.774, 0.132
82.83733, 0.695, 1.433, 1.928, -0.236, 0.520, 0.810, 0.137
82.96533, 0.766, 0.584, 1.568, -0.293, 0.539, 0.778, 0.137
83.02932, 0.219, -1.021, -1.277, -0.289, 0.515, 0.802, 0.089
93.03465, 0.155, -2.446, -1.687, -0.347, 0.442, 0.768, 0.306
93.24798, 0.536, 0.879, 0.183, -0.548, 0.458, 0.587, 0.381
93.39732, 1.034, 1.048, 1.205, -0.523, 0.470, 0.607, 0.371
93.50399, 0.111, -0.540, -0.507, -0.493, 0.488, 0.609, 0.386
93.54665, 0.475, -3.317, -1.794, -0.393, 0.488, 0.702, 0.339
93.58932, 0.806, 0.172, -0.206, -0.393, 0.480, 0.712, 0.329
93.632, 1.132, 1.242, 1.229, -0.490, 0.483, 0.627, 0.365
94.44265, 0.249, -0.029, -0.189, -0.478, 0.483, 0.651, 0.337
94.57066, 0.882, 0.413, 0.489, -0.427, 0.468, 0.717, 0.292
94.67732, 0.472, 0.405, 0.142, -0.518, 0.477, 0.619, 0.348
94.69866, -1.937, -0.513, -1.066, -0.487, 0.479, 0.646, 0.341
95.14664, 0.096, -0.434, -0.022, 0.052, -0.716, -0.665, 0.208
95.35998, 0.506, -0.498, 0.241, 0.055, -0.698, -0.666, 0.257
95.57331, -0.075, -0.915, 0.315, -0.098, -0.498, -0.642, 0.575
95.65866, -0.551, -0.077, -1.029, -0.076, -0.463, -0.636, 0.613
95.82932, 0.587, -0.508, 0.525, -0.006, -0.609, -0.639, 0.470
96.42664, 0.587, -0.394, -0.114, 0.163, -0.742, -0.612, 0.219
97.72798, -2.485, -0.368, -0.815, 0.003, -0.580, -0.808, 0.104
97.91998, -3.060, -0.958, -0.662, 0.008, -0.653, -0.750, -0.101
98.11199, -0.634, -0.737, -0.594, 0.147, -0.679, -0.718, 0.047
99.28533, -2.698, -0.594, -1.106, 0.002, -0.602, -0.798, 0.015
99.37066, 1.936, -0.635, 0.313, 0.017, -0.644, -0.725, -0.242
99.47733, -1.588, -1.156, -0.958, -0.004, -0.634, -0.763, -0.126
99.62664, -2.677, -0.754, -0.908, 0.012, -0.672, -0.730, -0.122
100.5013, -1.134, -1.330, -0.581, -0.069, -0.688, -0.643, 0.328
100.9066, -1.410, -0.112, -2.324, 0.108, -0.549, -0.822, -0.108
101.0133, 2.098, -0.718, 0.270, 0.040, -0.503, -0.819, -0.272
101.0987, -2.591, -0.844, -1.788, 0.010, -0.516, -0.828, -0.218
101.312, -0.861, 0.084, 0.234, -0.023, -0.502, -0.857, -0.117
102.4853, -2.318, -0.106, -1.459, 0.060, -0.609, -0.776, -0.152
102.528, -0.715, 0.265, -1.151, -0.019, -0.507, -0.860, 0.051
102.5707, 2.303, -0.246, 0.039, 0.011, -0.561, -0.821, -0.108
102.656, 0.309, -0.293, -0.039, 0.010, -0.630, -0.708, -0.318
104.1493, -3.607, -0.261, -1.638, -0.027, -0.559, -0.826, -0.060
104.256, 1.486, -0.571, 0.187, -0.051, -0.536, -0.826, -0.165
104.3627, -3.098, -1.139, -1.565, -0.045, -0.505, -0.851, -0.138
104.384, -0.432, -0.596, -0.720, -0.079, -0.476, -0.869, -0.106
104.448, 1.097, -0.108, -0.453, -0.066, -0.535, -0.796, -0.276
104.4907, -1.896, -0.716, -1.524, -0.037, -0.530, -0.814, -0.234
108.352, 0.254, -4.377, -2.089, -0.374, 0.399, 0.581, 0.603
108.3946, -0.076, -1.433, -1.454, -0.280, 0.386, 0.710, 0.518
108.5227, -0.221, 0.466, -0.440, -0.450, 0.437, 0.421, 0.655
108.5866, 0.271, -3.831, -1.878, -0.354, 0.408, 0.599, 0.591
108.6507, 0.511, 2.944, 1.208, -0.368, 0.416, 0.607, 0.568
108.6933, -0.092, 1.359, 0.666, -0.458, 0.444, 0.444, 0.629
108.7146, -0.404, -0.802, -0.874, -0.466, 0.461, 0.467, 0.593
108.8213, 0.613, -0.097, -0.010, -0.290, 0.435, 0.749, 0.407
110.1227, -0.552, 0.319, 0.841, -0.429, 0.545, 0.148, 0.705
110.208, -0.124, -3.363, -1.383, -0.280, 0.565, 0.469, 0.618
110.336, -0.397, -0.731, -0.257, -0.263, 0.594, 0.412, 0.639
110.3573, 0.154, -3.132, -1.591, -0.223, 0.541, 0.554, 0.592
111.424, -0.631, 0.064, -0.598, -0.103, -0.441, -0.825, 0.337
111.5733, -0.911, 0.573, -1.733, -0.140, -0.260, -0.854, 0.428
111.616, -0.053, 0.097, -1.161, -0.137, -0.194, -0.852, 0.467
112.2346, 0.597, 2.637, 1.436, 0.224, -0.310, -0.842, 0.381
112.2773, -1.606, 4.219, 0.637, 0.026, -0.368, -0.775, 0.514
112.2987, -4.672, 2.864, -1.030, -0.249, -0.371, -0.524, 0.725
112.5546, 2.429, 1.452, -0.162, 0.698, -0.506, -0.471, -0.187
112.5973, 2.792, -2.638, 0.746, 0.593, -0.666, -0.436, -0.121
112.6613, 5.012, 0.022, 1.236, -0.953, -0.266, 0.121, 0.080
112.768, 2.581, 0.568, 2.419, 0.790, 0.359, -0.371, 0.330
112.8746, 2.261, -0.451, 2.326, 0.463, 0.427, -0.768, 0.119
112.9173, 1.138, -1.280, 1.349, -0.355, -0.378, 0.850, 0.094
112.96, -0.883, -1.968, -0.106, -0.140, -0.150, 0.789, 0.579
113.1093, 0.531, -4.155, 0.745, -0.293, 0.020, 0.646, 0.704
113.1733, 3.321, -4.779, 1.764, -0.625, -0.285, 0.601, 0.410
113.3013, 2.674, 0.275, 4.912, 0.655, 0.312, -0.345, 0.596
113.3866, 1.871, -2.447, 0.619, 0.414, 0.267, -0.548, 0.676
113.4933, -0.220, -2.404, 0.012, -0.167, -0.047, 0.962, 0.212
113.6, 1.443, -2.475, -2.422, -0.100, 0.284, 0.844, 0.444
113.6853, 4.868, -0.914, -0.912, -0.456, 0.330, 0.772, 0.296
130.176, 0.047, 0.839, -0.559, -0.482, 0.145, 0.851, 0.151
132.8427, 0.407, -0.157, 1.462, 0.328, -0.500, -0.115, 0.793
132.8853, -0.758, -1.266, 3.006, 0.510, -0.620, -0.076, 0.591
132.928, -1.619, -0.833, 2.565, 0.559, -0.662, -0.053, 0.496
133.056, 0.673, 0.146, 0.719, 0.515, -0.461, -0.551, 0.467
133.0773, 0.368, 1.267, 0.051, 0.422, -0.411, -0.598, 0.543
133.312, -0.689, -0.341, 0.963, -0.114, -0.082, -0.048, -0.989
133.4187, 2.864, 1.414, 1.164, -0.277, 0.440, -0.256, -0.815
133.5253, 0.064, 0.610, -0.028, -0.651, -0.562, 0.472, 0.194
133.8027, -0.448, -0.058, -0.237, -0.136, 0.026, -0.987, 0.080
134.0373, 1.379, 0.441, 1.303, 0.724, 0.470, -0.502, 0.058
134.336, -0.109, -0.015, -1.015, -0.338, -0.279, 0.776, 0.453
134.4853, 0.249, 0.527, -0.318, 0.072, -0.042, 0.984, 0.159
140.9493, 0.498, -0.063, 1.024, -0.794, -0.116, 0.564, -0.195
140.992, -0.627, 0.610, -0.498, -0.634, -0.192, 0.652, -0.369
141.12, -0.117, 0.146, 0.576, -0.322, -0.156, 0.788, -0.501
141.3546, -0.281, 0.667, 0.465, -0.213, -0.032, 0.805, -0.552
141.3973, 1.291, 0.157, 1.963, -0.512, -0.232, 0.620, -0.547
141.888, 0.949, 0.120, 0.893, -0.525, -0.164, 0.645, -0.530
142.08, -0.579, -0.059, -1.143, -0.301, -0.055, 0.745, -0.592
142.1866, 0.742, 0.536, 1.330, -0.730, -0.240, 0.583, -0.264
142.3573, 0.687, 0.178, 1.399, -0.523, -0.146, 0.729, -0.417
142.4427, 0.707, -0.681, -1.253, -0.582, -0.151, 0.710, -0.367
